Time,acc_x,acc_y,acc_z
0.731,0.0026,0.00525,-1.01324
0.731,0.0026,0.00525,-1.01324
0.859,0.00266,0.00507,-1.01319
0.86,0.00142,0.00731,-1.01222
0.865,0.0018,0.00579,-1.0135
0.87,0.00259,0.00583,-1.013
1.076,0.00123,0.00518,-1.01332
1.076,0.00119,0.00565,-1.0135
1.092,0.0004,0.00599,-1.01348
1.092,0.00085,0.00658,-1.01426
1.092,0.0001,0.00709,-1.0139
1.092,0.00379,0.00528,-1.01363
1.295,0.00323,0.00617,-1.01265
1.295,0.00246,0.00477,-1.01272
1.295,0.0028,0.00589,-1.01323
1.295,0.00321,0.00545,-1.01324
1.295,0.00112,0.00638,-1.01236
1.295,0.0014,0.00504,-1.01237
1.307,-8e-05,0.00636,-1.01131
1.307,-0.00053,0.00649,-1.0125
1.501,0.00154,0.0059,-1.01409
1.506,0.00243,0.00618,-1.012
1.506,0.00107,0.00751,-1.01298
1.506,0.0006,0.00662,-1.01332
1.696,0.00083,0.00649,-1.01502
1.7,0.0033,0.00515,-1.0122
1.7,0.00325,0.00506,-1.01323
1.7,0.00212,0.00549,-1.0129
1.707,0.00226,0.00626,-1.01249
1.749,0.00386,0.00531,-1.01527
1.907,0.0026,0.00763,-1.01411
1.907,0.00301,0.00757,-1.01303
1.907,0.07933,0.00438,-1.00775
1.907,0.24688,0.02488,-1.01234
1.907,0.26253,-0.00497,-1.01312
2.111,0.26164,-0.01683,-1.0374
2.111,0.27773,-0.02396,-0.99707
2.111,0.26127,0.01964,-1.01297
2.111,0.02631,-0.03856,-0.97158
2.111,0.01417,0.00543,-1.05723
2.111,-0.09098,-0.04242,-0.97127
2.32,-0.10036,0.03042,-0.98304
2.321,-0.10037,0.01872,-0.98974
2.321,-0.08327,-0.00282,-1.02499
2.321,-0.03126,-0.01446,-1.03031
2.521,0.09058,-0.00748,-0.96022
2.521,0.09313,0.01958,-1.06053
2.521,0.02776,-0.04661,-0.94638
2.703,0.03683,-0.01625,-1.01782
2.703,0.02399,0.03343,-1.07395
2.704,-0.03603,-0.00887,-0.95681
2.705,-0.05785,0.00599,-1.02786
2.709,-0.04998,0.03658,-1.02458
2.875,-0.06641,0.00535,-0.98616
2.875,0.02101,-0.00751,-0.99495
2.888,0.04283,-0.05405,-0.98498
2.904,0.05942,0.02629,-1.0488
2.92,0.02983,0.03299,-1.0299
2.942,0.01866,-0.03696,-0.98797
2.961,0.06014,-0.00768,-1.00662
2.976,0.04074,0.05644,-1.03153
3.009,-0.01961,0.00367,-1.02822
3.025,-0.00014,-0.03628,-0.96048
3.042,0.02537,0.0259,-1.04644
3.057,-0.00494,0.02284,-1.014
3.089,-0.055,-0.04105,-1.02525
3.121,-0.02271,0.0188,-0.99325
3.142,-0.01709,0.03143,-0.96998
3.169,-0.02835,-0.01846,-1.02181
3.185,-0.04053,-0.00752,-1.05041
3.201,-0.04491,-0.02172,-0.99948
3.216,-0.03256,-0.01088,-0.99981
3.248,-0.01914,0.05805,-1.06752
3.264,-0.03816,0.01926,-0.9721
3.28,-0.01992,-0.0649,-0.99711
3.296,0.00868,-0.00515,-1.02991
3.327,-0.00431,0.00155,-0.94447
3.343,0.0214,-0.01693,-0.99464
3.358,0.03164,0.01004,-1.06089
3.39,-0.00313,0.02997,-1.05336
3.406,-0.00376,-0.04843,-0.95233
3.422,0.03741,-0.02785,-1.00165
3.451,0.03978,0.02818,-1.04503
3.469,0.00161,0.00931,-1.02068
3.49,0.00897,0.00844,-0.96749
3.511,0.0036,0.01829,-1.04081
3.525,0.00712,0.00534,-1.05268
3.543,-0.02903,-0.01844,-0.97157
3.557,-0.01188,-0.00983,-1.01252
3.589,-0.00362,0.00824,-1.03105
3.604,-0.01483,0.01771,-1.01133
3.62,-0.03069,0.01489,-0.97446
3.643,-0.0232,0.00664,-1.03776
3.668,-0.02444,0.01114,-1.03956
3.684,-0.01068,-0.00984,-0.97796
3.701,-0.00358,-0.01699,-1.00454
3.731,-0.00722,0.02856,-1.04552
3.747,-0.0184,0.0233,-1.01431
3.767,-0.01077,-0.03471,-0.97122
3.779,0.01409,-0.01878,-1.04958
3.811,0.01213,0.04704,-1.02243
3.827,-0.01431,-0.00077,-1.01106
3.846,0.01152,-0.03697,-0.97179
3.86,0.03713,0.02547,-1.0402
3.875,-0.00612,0.04073,-1.0218
3.907,-0.01845,-0.03097,-1.00033
3.923,0.03154,-0.00105,-1.01644
3.944,0.02497,0.03661,-1.02851
3.97,-0.01044,-0.01465,-1.01145
3.986,-0.01243,-0.03332,-1.01786
4.002,0.02343,0.05527,-0.99666
4.028,0.00198,0.01385,-0.99643
4.044,-0.01885,-0.03784,-1.04121
4.059,-0.01019,-0.01005,-1.01072
4.077,-0.01069,-0.00568,-0.99568
4.107,-0.00631,0.00219,-1.01666
4.123,-0.01523,0.04584,-1.05587
4.144,-0.02411,0.00325,-0.95425
4.188,0.00527,0.00061,-1.04423
4.204,-0.01291,0.0464,-1.01648
4.22,-0.00604,-0.02133,-0.95625
4.244,0.00651,-0.01372,-1.03865
4.268,0.01597,0.04865,-1.08174
4.284,-0.0363,-0.00245,-0.96823
4.3,0.00136,-0.05828,-0.97342
4.316,0.03065,-0.0021,-1.04306
4.347,0.0195,0.03216,-1.06111
4.363,-0.00106,0.01523,-0.95229
4.379,0.01866,-0.00075,-1.01579
4.411,0.00685,0.00097,-1.04536
4.427,0.0122,0.01526,-1.03687
4.444,-0.01296,-0.01538,-0.96486
4.459,0.00755,-0.00854,-1.01487
4.492,0.00791,0.01518,-1.0394
4.507,-0.00466,0.01625,-0.99686
4.524,-0.01395,0.00798,-0.98972
4.549,-0.01344,0.00459,-1.05788
4.566,-0.00774,0.01089,-1.00842
4.581,-0.01647,-0.03454,-0.97642
4.597,0.00428,-0.00038,-1.033
4.629,-0.00141,0.0445,-1.03769
4.645,-0.0263,0.00568,-0.98671
4.661,-0.00723,-0.03779,-1.02096
4.677,0.01162,0.01716,-1.02159
4.709,-0.01591,0.03545,-1.02645
4.725,-0.01731,-0.03998,-0.97889
4.745,0.02253,-0.02077,-1.0455
4.757,0.00788,0.04832,-1.01752
4.79,-0.02726,0.00818,-1.00872
4.806,-0.00381,-0.02631,-0.97496
4.821,-0.00381,-0.02631,-0.97496
4.845,-0.10384,0.04171,-1.05218
4.869,-0.19955,-0.03013,-1.0029
4.885,-0.20785,-0.03778,-0.96418
4.901,-0.23874,-0.02336,-1.01907
4.923,-0.25743,-0.00964,-1.0095
4.948,-0.27991,-2e-05,-1.02189
4.964,-0.27865,0.00908,-1.00811
4.982,-0.25375,0.02537,-1.01265
4.996,-0.18103,0.09235,-0.99777
5.028,-0.10047,0.18005,-1.01842
5.045,-0.09329,0.13988,-1.00888
5.06,-0.07013,-0.0002,-1.01323
5.09,-0.02943,-0.11159,-1.02239
5.095,0.02516,-0.09024,-1.01341
5.127,0.08716,0.02616,-1.0162
5.145,0.11718,0.05242,-1.01296
5.159,0.12289,0.01365,-1.01228
5.174,0.11112,0.00107,-1.01685
5.206,0.12031,0.01357,-1.01207
5.222,0.12943,0.01467,-1.00848
5.246,0.11686,0.00933,-1.0232
5.266,0.08843,0.0092,-1.01498
5.287,0.05821,0.00612,-1.0196
5.303,0.02621,0.00269,-1.01583
5.319,-0.01027,0.00624,-1.01355
5.346,-0.02111,0.03602,-1.00794
5.367,-0.0424,0.0322,-1.02209
5.385,-0.06399,0.0154,-1.01711
5.398,-0.07333,0.00673,-1.00582
5.431,-0.08379,0.00274,-1.01454
5.446,-0.09057,-0.00144,-1.00903
5.462,-0.09674,-0.00249,-1.00363
5.478,-0.09174,0.00325,-1.0074
5.51,-0.07324,0.00428,-1.01613
5.526,-0.04417,-0.0145,-1.02101
5.547,-0.0178,-0.02182,-1.01696
5.558,0.01904,-0.03255,-1.02152
5.59,0.05116,-0.0488,-1.0311
5.61,0.06212,0.00847,-1.0051
5.647,0.08061,0.05039,-1.00409
5.663,0.06857,0.02834,-1.00742
5.679,0.05222,-0.00729,-1.01597
5.695,0.04424,-0.03144,-1.01126
5.726,0.04923,-0.01587,-1.0128
5.747,0.04989,0.02832,-1.01172
5.759,0.03279,0.03638,-1.01456
5.792,0.01433,0.03533,-1.01461
5.808,0.01146,0.04495,-1.00893
5.825,-0.01313,0.03255,-1.01897
5.848,-0.02937,0.02296,-1.0087
5.861,-0.04354,0.00944,-1.01194
5.888,-0.04852,-0.00888,-1.01739
5.904,-0.047,-0.03392,-1.01927
5.92,-0.04102,-0.00789,-1.00353
5.948,-0.03958,-0.00115,-1.01734
5.967,-0.03885,-0.01544,-1.01348
5.984,-0.02639,-0.02673,-1.01581
6.0,-0.01548,-0.01926,-1.01266
6.022,0.00256,-0.00194,-1.01127
6.048,0.01513,0.00013,-1.01695
6.064,0.01834,-0.00029,-1.01854
6.08,0.01975,0.0162,-1.00863
6.096,0.01953,0.01219,-1.01843
6.129,0.02216,-0.00368,-1.01346
6.148,0.02417,-0.0089,-1.01486
6.168,0.02417,-0.0089,-1.01486
6.185,0.02411,0.00103,-1.02068
6.201,0.03201,0.01465,-1.01181
6.217,0.03107,0.02548,-1.00817
6.25,0.02278,0.02449,-1.01634
6.271,0.02278,0.02449,-1.01634
6.282,-0.02114,0.01366,-1.01829
6.298,-0.01969,0.01498,-1.0143
6.33,-0.01527,0.01839,-1.01301
6.348,-0.02731,0.00391,-1.00982
6.364,-0.02731,0.00391,-1.00982
6.378,-0.03196,0.0023,-1.00721
6.41,-0.02345,0.01019,-1.00546
6.425,-0.02785,0.00244,-1.0157
6.449,-0.01304,-0.00656,-1.02009
6.457,-0.01304,-0.00656,-1.02009
6.492,0.00648,0.00062,-1.01196
6.506,0.0164,-0.00553,-1.01512
6.522,0.00118,-0.02958,-1.01938
6.549,0.01114,-0.01595,-1.01752
6.569,0.03061,0.00185,-1.01278
6.586,0.02971,-0.00251,-1.00873
6.602,0.0248,0.00033,-1.01238
6.618,0.02148,0.01373,-1.00976
6.649,0.01227,0.01893,-1.00933
6.666,0.00265,0.02275,-1.0013
6.676,-0.00158,0.00126,-1.02302
6.707,-0.00256,-0.03881,-1.02871
6.724,-0.00148,-0.0227,-1.01203
6.749,0.01288,0.0197,-1.00937
6.772,-0.0031,0.02457,-1.01774
6.788,-0.0089,0.02082,-1.00665
6.804,-0.00015,0.04032,-1.01722
6.82,0.00604,0.03392,-1.0232
6.849,0.00476,0.00236,-1.00601
6.868,0.0001,-0.00948,-1.00368
6.884,-0.00229,0.00025,-1.00637
6.9,-0.01014,0.01186,-1.00303
6.916,-0.03645,-0.00083,-1.00745
6.949,-0.03565,-0.02331,-1.0295
6.963,-0.01187,-0.0506,-1.02932
6.979,-0.00417,-0.03488,-1.01579
7.027,0.01471,-0.01174,-1.01474
7.05,0.01471,-0.01174,-1.01474
7.059,0.02114,1e-05,-1.02089
7.09,0.0242,-0.01009,-1.01636
7.108,0.03585,-0.00083,-1.00947
7.122,0.03448,0.02039,-1.01153
7.15,0.02062,0.01337,-1.00689
7.169,-0.00158,0.0063,-1.00848
7.185,-0.02547,0.04414,-1.00069
7.21,-0.04335,0.02375,-1.02044
7.225,-0.03379,-0.02363,-1.0336
7.25,-0.00882,0.00165,-1.01772
7.257,0.01669,0.04618,-1.01116
7.289,0.01936,0.02692,-1.01189
7.304,0.01333,-0.0019,-1.01769
7.32,0.01813,-0.00271,-1.01167
7.35,0.01532,-0.0118,-1.00863
7.368,0.0041,-0.03939,-1.0094
7.384,-0.01414,-0.04355,-1.01335
7.4,-0.01838,-0.0181,-1.00072
7.416,-0.0201,0.00628,-1.01177
7.45,-0.00624,-0.02443,-1.02521
7.464,0.00719,-0.02698,-1.02279
7.481,0.02571,0.02267,-1.01503
7.496,0.03529,0.02968,-1.01586
7.528,0.01361,0.01442,-1.01609
7.55,0.01104,0.02064,-1.01342
7.561,0.01643,0.02528,-1.0088
7.58,0.01062,0.02137,-1.01013
7.61,0.00467,0.0054,-1.01063
7.626,-0.0092,-0.02603,-1.0172
7.642,-0.0261,-0.0579,-1.0232
7.658,-0.02052,-0.01769,-1.00888
7.707,-0.01195,0.06329,-0.99989
7.729,0.00138,0.06467,-1.01471
7.739,0.00022,-0.00183,-1.02428
7.755,-0.00914,0.00219,-1.01347
7.787,-0.00236,-0.01259,-1.0227
7.803,0.00682,-0.00755,-1.0098
7.819,0.00682,-0.00755,-1.0098
7.851,0.01735,-0.00546,-1.01052
7.867,-0.00081,-0.04793,-1.00912
7.883,-0.00212,-0.04188,-1.01951
7.899,0.01181,-0.02576,-1.00882
7.931,0.01635,-0.00354,-1.01975
7.947,0.02335,-0.00785,-1.021
7.963,0.0293,-0.00928,-1.01571
7.979,0.01535,0.0112,-1.01004
7.995,-0.01206,-0.01006,-1.00617
8.027,-0.02776,-0.03645,-1.00278
8.042,-0.03001,-0.02375,-1.02516
8.058,-0.02636,-0.01957,-1.0169
8.091,-0.03318,-0.02621,-1.00219
8.107,-0.03426,-0.03071,-1.01808
8.123,-0.02189,-0.01872,-1.02202
8.139,-0.01487,0.01206,-1.00906
8.154,-0.01175,0.01364,-1.01046
8.186,-0.00367,0.00168,-1.01681
8.203,1e-05,-0.00045,-1.01441
8.219,-0.00446,0.00733,-1.01421
8.252,-0.00475,0.00874,-1.01204
8.27,-0.00342,-0.00205,-1.01271
8.286,-0.00281,0.00218,-1.01585
8.302,-0.00092,0.01498,-1.01391
8.318,-0.00156,0.00013,-1.01366
8.349,-0.00201,-0.00248,-1.01418
8.366,0.00077,0.01323,-1.01245
8.381,0.00248,0.00496,-1.01485
8.398,0.00108,-0.00153,-1.01668
8.429,0.00427,0.00898,-1.0137
8.446,0.00643,0.00549,-1.01333
8.462,0.00625,0.00096,-1.01506
8.478,0.00517,0.00573,-1.01313
